Gain (V/A)	Calibration: V/I(Ohm)	I0 (pA)	B/V (T/V)	B0(T)	OFFSET current (pA)	Sample area (mm^2)	Keithley averaging	Stepping mode	Reoffset	Window (s)	Stabilization time (s)	Reoffsetting time (s)
1000000000.000000	0.482617	1.000000	10.000000	0.000000	0.000000	0.000000	0.000000	0.000000				
T(K)	B(T)	I(pA)	t(s)	P(uC/m^2)								
4.71200	0.01185	0.00138	-0.03500	-4.84133E-5
4.68700	0.01185	-0.00882	0.06500	-0.00093
4.68700	0.01187	-0.00162	0.16501	-0.00016
4.68700	0.01187	0.00538	0.26502	0.00054
4.68700	0.01188	0.03318	0.36502	0.00332
4.68700	0.01186	0.00538	0.46503	0.00054
4.68700	0.01185	0.00578	0.56503	0.00058
4.68700	0.01185	-0.04552	0.66504	-0.00455
4.68800	0.01187	-0.02242	0.76504	-0.00224
4.68900	0.01189	-0.01622	0.86505	-0.00162
4.69000	0.01189	0.01758	0.96506	0.00176
4.69100	0.01186	-1.68317E-5	1.06506	-1.68326E-6
4.69200	0.01186	-0.02512	1.16507	-0.00251
4.69400	0.01186	-0.05252	1.26507	-0.00525
4.69600	0.01183	-0.05562	1.36508	-0.00556
4.69900	0.01183	-0.01962	1.46508	-0.00196
4.70100	0.01182	-0.02152	1.56509	-0.00215
4.70400	0.01183	-0.02442	1.66510	-0.00244
4.70700	0.01185	-0.02342	1.76510	-0.00234
4.71000	0.01185	-0.01722	1.86511	-0.00172
4.71300	0.01187	0.01248	1.96511	0.00125
4.71700	0.01188	0.00658	2.06512	0.00066
4.72100	0.01193	0.01798	2.16512	0.00180
4.72400	0.01197	0.00698	2.26513	0.00070
4.72800	0.01200	0.00378	2.36514	0.00038
4.73200	0.01203	-0.01582	2.46514	-0.00158
4.73600	0.01204	-0.02532	2.56515	-0.00253
4.74000	0.01204	-0.03712	2.66515	-0.00371
4.74500	0.01202	-0.02822	2.76516	-0.00282
4.74900	0.01203	-0.01972	2.86516	-0.00197
4.75400	0.01204	-0.02662	2.96517	-0.00266
4.75800	0.01205	-0.04012	3.06518	-0.00401
4.76400	0.01208	-0.05072	3.16518	-0.00507
4.76900	0.01207	-0.04062	3.26519	-0.00406
4.77400	0.01211	-0.03892	3.36519	-0.00389
4.77900	0.01214	-0.03772	3.46520	-0.00377
4.78500	0.01213	-0.05702	3.56520	-0.00570
4.79000	0.01214	-0.06622	3.66521	-0.00662
4.79600	0.01215	-0.09742	3.76522	-0.00974
4.80200	0.01218	-0.08332	3.86522	-0.00833
4.80800	0.01221	-0.06532	3.96523	-0.00653
4.81400	0.01223	-0.04412	4.06523	-0.00441
4.82000	0.01224	-0.03782	4.16524	-0.00378
4.82600	0.01223	-0.05932	4.26524	-0.00593
4.83300	0.01224	-0.09762	4.36525	-0.00976
4.83900	0.01226	-0.10652	4.46526	-0.01065
4.84500	0.01229	-0.08662	4.56526	-0.00866
4.85100	0.01233	-0.05412	4.66527	-0.00541
4.85700	0.01235	-0.02172	4.76527	-0.00217
4.86300	0.01235	-0.04002	4.86528	-0.00400
4.87000	0.01236	-0.07672	4.96528	-0.00767
4.87600	0.01240	-0.11162	5.06529	-0.01116
4.88300	0.01244	-0.13442	5.16530	-0.01344
4.88900	0.01249	-0.13502	5.26430	-0.01337
4.89600	0.01251	-0.13122	5.36431	-0.01312
4.90400	0.01254	-0.12872	5.46431	-0.01287
4.91100	0.01254	-0.13122	5.56432	-0.01312
4.91800	0.01254	-0.12992	5.66432	-0.01299
4.92600	0.01255	-0.10812	5.76433	-0.01081
4.93300	0.01258	-0.10172	5.86434	-0.01017
4.94000	0.01261	-0.08942	5.96434	-0.00894
4.94700	0.01267	-0.08172	6.06435	-0.00817
4.95400	0.01271	-0.07062	6.16435	-0.00706
4.96100	0.01276	-0.07842	6.26436	-0.00784
4.96800	0.01278	-0.08002	6.36436	-0.00800
4.97500	0.01277	-0.11012	6.46437	-0.01101
4.98200	0.01277	-0.08892	6.56438	-0.00889
4.98900	0.01280	-0.07982	6.66438	-0.00798
4.99600	0.01283	-0.03072	6.76439	-0.00307
5.00300	0.01286	-0.06042	6.86439	-0.00604
5.01000	0.01291	-0.06302	6.96440	-0.00630
5.01800	0.01293	-0.10722	7.06440	-0.01072
5.02500	0.01295	-0.07532	7.16441	-0.00753
5.03200	0.01297	-0.05182	7.26442	-0.00518
5.04000	0.01299	-0.02542	7.36442	-0.00254
5.04700	0.01299	-0.03872	7.46443	-0.00387
5.05500	0.01300	-0.06402	7.56443	-0.00640
5.06200	0.01304	-0.06952	7.66444	-0.00695
5.07000	0.01310	-0.07342	7.76444	-0.00734
5.07800	0.01316	-0.05082	7.86445	-0.00508
5.08500	0.01318	-0.03442	7.96446	-0.00344
5.09300	0.01321	-0.04362	8.06446	-0.00436
5.10100	0.01323	-0.05322	8.16447	-0.00532
5.10900	0.01327	-0.07832	8.26447	-0.00783
5.11700	0.01329	-0.09622	8.36448	-0.00962
5.12400	0.01331	-0.11952	8.46448	-0.01195
5.13200	0.01332	-0.11302	8.56449	-0.01130
5.13900	0.01334	-0.09752	8.66450	-0.00975
5.14600	0.01336	-0.10442	8.76450	-0.01044
5.15400	0.01337	-0.09932	8.86451	-0.00993
5.16200	0.01339	-0.10842	8.96451	-0.01084
5.17000	0.01338	-0.08772	9.06452	-0.00877
5.17800	0.01338	-0.08942	9.16452	-0.00894
5.18700	0.01343	-0.05952	9.26453	-0.00595
5.19500	0.01348	-0.05412	9.36454	-0.00541
5.20300	0.01350	-0.07482	9.46454	-0.00748
5.21200	0.01352	-0.09782	9.56455	-0.00978
5.22000	0.01352	-0.11332	9.66455	-0.01133
5.22700	0.01353	-0.11332	9.76456	-0.01133
5.23500	0.01359	-0.09332	9.86456	-0.00933
5.24300	0.01364	-0.07842	9.96457	-0.00784
5.25200	0.01368	-0.08372	10.06458	-0.00837
5.26100	0.01374	-0.11242	10.16458	-0.01124
5.26900	0.01376	-0.12972	10.26459	-0.01297
5.27800	0.01379	-0.13132	10.36459	-0.01313
5.28700	0.01383	-0.10942	10.46460	-0.01094
5.29500	0.01388	-0.09312	10.56460	-0.00931
5.30400	0.01390	-0.08762	10.66461	-0.00876
5.31200	0.01393	-0.13252	10.76462	-0.01325
5.32100	0.01393	-0.14192	10.86462	-0.01419
5.33000	0.01394	-0.15342	10.96463	-0.01534
5.33900	0.01398	-0.13682	11.06463	-0.01368
5.34700	0.01401	-0.12872	11.16464	-0.01287
5.35500	0.01405	-0.12882	11.26464	-0.01288
5.36400	0.01407	-0.11402	11.36465	-0.01140
5.37200	0.01406	-0.15232	11.46466	-0.01523
5.38000	0.01407	-0.14902	11.56466	-0.01490
5.38800	0.01412	-0.15522	11.66467	-0.01552
5.39600	0.01414	-0.14192	11.76467	-0.01419
5.40600	0.01417	-0.12332	11.86468	-0.01233
5.41600	0.01419	-0.09462	11.96468	-0.00946
5.42400	0.01422	-0.09322	12.06469	-0.00932
5.43300	0.01429	-0.10582	12.16470	-0.01058
5.44200	0.01431	-0.12172	12.26470	-0.01217
5.45000	0.01432	-0.12342	12.36471	-0.01234
5.45900	0.01431	-0.12072	12.46471	-0.01207
5.46700	0.01430	-0.12552	12.56472	-0.01255
5.47600	0.01433	-0.12262	12.66472	-0.01226
5.48500	0.01435	-0.15462	12.76473	-0.01546
5.49400	0.01438	-0.16122	12.86474	-0.01612
5.50300	0.01443	-0.16212	12.96474	-0.01621
5.51300	0.01449	-0.15252	13.06475	-0.01525
5.52200	0.01454	-0.13002	13.16475	-0.01300
5.53100	0.01462	-0.12112	13.26476	-0.01211
5.54100	0.01469	-0.11342	13.36476	-0.01134
5.55100	0.01471	-0.10472	13.46477	-0.01047
5.56000	0.01474	-0.11052	13.56478	-0.01105
5.56800	0.01479	-0.11862	13.66478	-0.01186
5.57700	0.01481	-0.12612	13.76479	-0.01261
5.58500	0.01485	-0.14212	13.86479	-0.01421
5.59400	0.01487	-0.15902	13.96480	-0.01590
5.60300	0.01488	-0.17232	14.06480	-0.01723
5.61200	0.01490	-0.17252	14.16481	-0.01725
5.62100	0.01493	-0.13082	14.26482	-0.01308
5.63100	0.01499	-0.10332	14.36482	-0.01033
5.64100	0.01504	-0.08812	14.46483	-0.00881
5.65100	0.01508	-0.08852	14.56483	-0.00885
5.66100	0.01509	-0.09762	14.66484	-0.00976
5.67000	0.01508	-0.10252	14.76684	-0.01046
5.67900	0.01508	-0.08792	14.86485	-0.00862
5.69000	0.01511	-0.09082	14.96486	-0.00908
5.70100	0.01516	-0.09182	15.06486	-0.00918
5.71100	0.01517	-0.10182	15.16487	-0.01018
5.72100	0.01523	-0.11362	15.26487	-0.01136
5.73000	0.01528	-0.11402	15.36488	-0.01140
5.73800	0.01530	-0.13122	15.46488	-0.01312
5.74700	0.01532	-0.11732	15.56489	-0.01173
5.75500	0.01537	-0.08452	15.66490	-0.00845
5.76500	0.01538	-0.09312	15.76490	-0.00931
5.77500	0.01542	-0.10022	15.86491	-0.01002
5.78400	0.01546	-0.14282	15.96491	-0.01428
5.79300	0.01547	-0.17722	16.06492	-0.01772
5.80200	0.01549	-0.18442	16.16492	-0.01844
5.81200	0.01551	-0.13962	16.26493	-0.01396
5.82100	0.01552	-0.09852	16.36494	-0.00985
5.83100	0.01553	-0.09162	16.46494	-0.00916
5.84000	0.01556	-0.10852	16.56495	-0.01085
5.84900	0.01556	-0.14992	16.66495	-0.01499
5.85800	0.01562	-0.17102	16.76496	-0.01710
5.86800	0.01565	-0.17842	16.86496	-0.01784
5.87800	0.01566	-0.16572	16.96497	-0.01657
5.88800	0.01569	-0.17282	17.06498	-0.01728
5.89800	0.01572	-0.16852	17.16498	-0.01685
5.90900	0.01575	-0.16412	17.26499	-0.01641
5.92000	0.01578	-0.17452	17.36499	-0.01745
5.93100	0.01581	-0.17712	17.46500	-0.01771
5.94200	0.01583	-0.17752	17.56500	-0.01775
5.95200	0.01584	-0.17062	17.66501	-0.01706
5.96200	0.01587	-0.18642	17.76502	-0.01864
5.97200	0.01591	-0.19162	17.86502	-0.01916
5.98200	0.01596	-0.15732	17.96503	-0.01573
5.99200	0.01600	-0.15062	18.06503	-0.01506
6.00200	0.01603	-0.11892	18.16504	-0.01189
6.01200	0.01604	-0.13102	18.26504	-0.01310
6.02300	0.01609	-0.11772	18.36505	-0.01177
6.03400	0.01611	-0.14342	18.46506	-0.01434
6.04600	0.01614	-0.15792	18.56506	-0.01579
6.05700	0.01615	-0.16382	18.66507	-0.01638
6.06700	0.01617	-0.16512	18.76507	-0.01651
6.07700	0.01625	-0.14612	18.86508	-0.01461
6.08700	0.01629	-0.12762	18.96509	-0.01276
6.09700	0.01633	-0.12432	19.06509	-0.01243
6.10800	0.01641	-0.14932	19.16510	-0.01493
6.11800	0.01644	-0.14482	19.26510	-0.01448
6.12700	0.01648	-0.15362	19.36511	-0.01536
6.13800	0.01650	-0.13702	19.46511	-0.01370
6.15000	0.01652	-0.13632	19.56512	-0.01363
6.16000	0.01655	-0.14422	19.66512	-0.01442
6.16900	0.01658	-0.16382	19.76513	-0.01638
6.17600	0.01659	-0.16912	19.86514	-0.01691
6.18500	0.01665	-0.16292	19.96514	-0.01629
6.19300	0.01670	-0.12812	20.06515	-0.01281
6.20200	0.01674	-0.11162	20.16515	-0.01116
6.21200	0.01680	-0.11582	20.26516	-0.01158
6.22300	0.01682	-0.12272	20.36516	-0.01227
6.23400	0.01683	-0.14152	20.46517	-0.01415
6.24700	0.01686	-0.16192	20.56518	-0.01619
6.25900	0.01691	-0.16762	20.66518	-0.01676
6.27200	0.01696	-0.18002	20.76519	-0.01800
6.28300	0.01703	-0.19592	20.86519	-0.01959
6.29500	0.01706	-0.17612	20.96520	-0.01761
6.30500	0.01706	-0.15112	21.06521	-0.01511
6.31400	0.01710	-0.16152	21.16521	-0.01615
6.32300	0.01714	-0.15632	21.26522	-0.01563
6.33400	0.01717	-0.17812	21.36522	-0.01781
6.34700	0.01718	-0.20502	21.46523	-0.02050
6.35900	0.01719	-0.18162	21.56523	-0.01816
6.37000	0.01722	-0.17582	21.66524	-0.01758
6.37900	0.01726	-0.18662	21.76524	-0.01866
6.38800	0.01728	-0.19532	21.86525	-0.01953
6.39600	0.01732	-0.20182	21.96526	-0.02018
6.40500	0.01735	-0.14752	22.06526	-0.01475
6.41300	0.01737	-0.13152	22.16527	-0.01315
6.42200	0.01738	-0.11602	22.26627	-0.01172
6.43200	0.01742	-0.13952	22.36528	-0.01381
6.44300	0.01749	-0.18832	22.46528	-0.01883
6.45500	0.01754	-0.21072	22.56529	-0.02107
6.46700	0.01758	-0.23782	22.66430	-0.02355
6.47900	0.01762	-0.23252	22.76430	-0.02325
6.49000	0.01765	-0.22272	22.86431	-0.02227
6.50200	0.01766	-0.21122	22.96431	-0.02112
6.51300	0.01769	-0.19772	23.06432	-0.01977
6.52400	0.01773	-0.21282	23.16433	-0.02128
6.53400	0.01776	-0.22112	23.26433	-0.02211
6.54500	0.01782	-0.21722	23.36434	-0.02172
6.55800	0.01784	-0.21812	23.46434	-0.02181
6.57100	0.01791	-0.23032	23.56435	-0.02303
6.58600	0.01795	-0.23752	23.66435	-0.02375
6.59900	0.01797	-0.25032	23.76436	-0.02503
6.61200	0.01802	-0.26012	23.86437	-0.02601
6.62300	0.01806	-0.25502	23.96437	-0.02550
6.63400	0.01810	-0.22232	24.06438	-0.02223
6.64400	0.01812	-0.21282	24.16438	-0.02128
6.65300	0.01816	-0.20182	24.26439	-0.02018
6.66200	0.01821	-0.19682	24.36439	-0.01968
6.67100	0.01825	-0.20302	24.46440	-0.02030
6.68200	0.01831	-0.21412	24.56440	-0.02141
6.69200	0.01832	-0.19742	24.66441	-0.01974
6.70200	0.01835	-0.18962	24.76442	-0.01896
6.71200	0.01838	-0.19362	24.86442	-0.01936
6.72300	0.01841	-0.22222	24.96443	-0.02222
6.73400	0.01844	-0.24762	25.06443	-0.02476
6.74600	0.01846	-0.25722	25.16444	-0.02572
6.75800	0.01850	-0.22852	25.26445	-0.02285
6.76800	0.01850	-0.20192	25.36445	-0.02019
6.77800	0.01854	-0.17052	25.46446	-0.01705
6.78800	0.01858	-0.19752	25.56446	-0.01975
6.80000	0.01865	-0.21842	25.66447	-0.02184
6.81400	0.01871	-0.23642	25.76447	-0.02364
6.82800	0.01876	-0.26312	25.86448	-0.02631
6.84300	0.01881	-0.26142	25.96449	-0.02614
6.85700	0.01883	-0.25442	26.06449	-0.02544
6.87200	0.01887	-0.27042	26.16450	-0.02704
6.88500	0.01892	-0.26552	26.26450	-0.02655
6.89800	0.01899	-0.26042	26.36451	-0.02604
6.90800	0.01906	-0.26982	26.46451	-0.02698
6.91900	0.01908	-0.24302	26.56452	-0.02430
6.92900	0.01915	-0.22452	26.66453	-0.02245
6.93900	0.01923	-0.22432	26.76453	-0.02243
6.95000	0.01928	-0.21902	26.86454	-0.02190
6.96300	0.01931	-0.22672	26.96454	-0.02267
6.97500	0.01936	-0.19482	27.06455	-0.01948
6.98800	0.01941	-0.19652	27.16455	-0.01965
7.00100	0.01944	-0.20492	27.26456	-0.02049
7.01400	0.01948	-0.23262	27.36457	-0.02326
7.02600	0.01953	-0.24062	27.46457	-0.02406
7.03800	0.01956	-0.24352	27.56458	-0.02435
7.04800	0.01959	-0.21542	27.66458	-0.02154
7.05700	0.01960	-0.19422	27.76459	-0.01942
7.06400	0.01960	-0.18632	27.86459	-0.01863
7.07100	0.01960	-0.16842	27.96460	-0.01684
7.08000	0.01963	-0.17192	28.06461	-0.01719
7.09300	0.01965	-0.22412	28.16461	-0.02241
7.10800	0.01970	-0.27012	28.26462	-0.02701
7.12200	0.01976	-0.28062	28.36462	-0.02806
7.13500	0.01978	-0.25842	28.46463	-0.02584
7.14800	0.01982	-0.23322	28.56463	-0.02332
7.16300	0.01987	-0.22972	28.66464	-0.02297
7.17700	0.01988	-0.26702	28.76465	-0.02670
7.19200	0.01991	-0.29772	28.86465	-0.02977
7.20600	0.01998	-0.30362	28.96466	-0.03036
7.22000	0.02001	-0.23952	29.06466	-0.02395
7.23400	0.02009	-0.20722	29.16467	-0.02072
7.24800	0.02015	-0.20212	29.26467	-0.02021
7.26300	0.02018	-0.21502	29.36468	-0.02150
7.27900	0.02021	-0.24682	29.46469	-0.02468
7.29200	0.02022	-0.24242	29.56469	-0.02424
7.30400	0.02023	-0.21912	29.66470	-0.02191
7.31400	0.02024	-0.21292	29.76470	-0.02129
7.32400	0.02027	-0.20302	29.86471	-0.02030
7.33200	0.02029	-0.21372	29.96471	-0.02137
7.34200	0.02034	-0.23872	30.06472	-0.02387
7.35400	0.02039	-0.27092	30.16473	-0.02709
7.36500	0.02041	-0.27912	30.26473	-0.02791
7.37600	0.02046	-0.26782	30.36474	-0.02678
7.38600	0.02050	-0.25162	30.46474	-0.02516
7.39600	0.02053	-0.25792	30.56475	-0.02579
7.40600	0.02059	-0.23242	30.66475	-0.02324
7.41600	0.02062	-0.24672	30.76476	-0.02467
7.42700	0.02065	-0.23822	30.86477	-0.02382
7.43900	0.02070	-0.23392	30.96477	-0.02339
7.45300	0.02074	-0.24672	31.06478	-0.02467
7.46700	0.02079	-0.25512	31.16478	-0.02551
7.47900	0.02079	-0.25342	31.26479	-0.02534
7.49200	0.02082	-0.27332	31.36479	-0.02733
7.50300	0.02085	-0.27802	31.46480	-0.02780
7.51400	0.02089	-0.29232	31.56481	-0.02923
7.52500	0.02091	-0.29292	31.66481	-0.02929
7.53400	0.02096	-0.29512	31.76482	-0.02951
7.54400	0.02101	-0.30022	31.86482	-0.03002
7.55400	0.02105	-0.30852	31.96483	-0.03085
7.56500	0.02110	-0.32902	32.06483	-0.03290
7.57800	0.02116	-0.32872	32.16484	-0.03287
7.58800	0.02119	-0.31542	32.26485	-0.03154
7.59700	0.02122	-0.29102	32.36485	-0.02910
7.60600	0.02125	-0.27442	32.46486	-0.02744
7.61600	0.02129	-0.26922	32.56486	-0.02692
7.62800	0.02133	-0.28712	32.66487	-0.02871
7.64200	0.02141	-0.32432	32.76487	-0.03243
7.65700	0.02145	-0.33332	32.86488	-0.03333
7.67200	0.02148	-0.32832	32.96489	-0.03283
7.68400	0.02154	-0.33752	33.06489	-0.03375
7.69500	0.02157	-0.35042	33.16490	-0.03504
7.70800	0.02162	-0.38782	33.26490	-0.03878
7.72100	0.02169	-0.32212	33.36491	-0.03221
7.73300	0.02171	-0.31262	33.46491	-0.03126
7.74300	0.02174	-0.21082	33.56492	-0.02108
7.75100	0.02176	-0.19322	33.66493	-0.01932
7.76100	0.02180	-0.16852	33.76493	-0.01685
7.77000	0.02184	-0.17422	33.86494	-0.01742
7.77900	0.02186	-0.19172	33.96494	-0.01917
7.78700	0.02185	-0.16932	34.06495	-0.01693
7.79500	0.02182	-0.17812	34.16495	-0.01781
7.80300	0.02181	-0.15992	34.26496	-0.01599
7.81000	0.02182	-0.12442	34.36497	-0.01244
7.81600	0.02186	-0.10832	34.46497	-0.01083
7.82000	0.02192	-0.09002	34.56498	-0.00900
7.82400	0.02198	-0.09592	34.66498	-0.00959
7.82900	0.02200	-0.10222	34.76499	-0.01022
7.83400	0.02200	-0.10622	34.86499	-0.01062
7.83900	0.02202	-0.11702	34.96500	-0.01170
7.84500	0.02203	-0.12432	35.06501	-0.01243
7.85100	0.02204	-0.17352	35.16501	-0.01735
7.85800	0.02204	-0.20052	35.26502	-0.02005
7.86400	0.02205	-0.19992	35.36502	-0.01999
7.87000	0.02210	-0.15342	35.46503	-0.01534
7.87600	0.02216	-0.11322	35.56503	-0.01132
7.88300	0.02219	-0.09062	35.66504	-0.00906
7.88900	0.02223	-0.12922	35.76505	-0.01292
7.89500	0.02227	-0.17752	35.86505	-0.01775
7.90000	0.02230	-0.21192	35.96506	-0.02119
7.90500	0.02231	-0.15372	36.06506	-0.01537
7.91000	0.02232	-0.10152	36.16507	-0.01015
7.91300	0.02232	-0.07502	36.26507	-0.00750
7.91700	0.02236	-0.04982	36.36508	-0.00498
7.92000	0.02237	-0.06672	36.46509	-0.00667
7.92100	0.02237	-0.06302	36.56509	-0.00630
7.92200	0.02235	-0.06942	36.66510	-0.00694
7.92400	0.02233	-0.08162	36.76510	-0.00816
7.92600	0.02233	-0.06842	36.86511	-0.00684
7.92600	0.02229	-0.04922	36.96511	-0.00492
7.92500	0.02228	-0.02282	37.06512	-0.00228
7.92400	0.02227	-0.02652	37.16513	-0.00265
7.92500	0.02230	-0.04022	37.26513	-0.00402
7.92700	0.02231	-0.07022	37.36514	-0.00702
7.92900	0.02235	-0.06632	37.46514	-0.00663
7.93100	0.02239	-0.09462	37.56515	-0.00946
7.93300	0.02240	-0.07492	37.66515	-0.00749
7.93500	0.02243	-0.09422	37.76516	-0.00942
7.93900	0.02244	-0.10582	37.86517	-0.01058
7.94300	0.02245	-0.10552	37.96517	-0.01055
7.94700	0.02245	-0.13422	38.06518	-0.01342
7.95100	0.02244	-0.14012	38.16518	-0.01401
7.95400	0.02242	-0.12192	38.26519	-0.01219
7.95800	0.02241	-0.11642	38.36519	-0.01164
7.96200	0.02242	-0.08032	38.46520	-0.00803
7.96500	0.02245	-0.08422	38.56521	-0.00842
7.96700	0.02249	-0.05202	38.66521	-0.00520
7.96900	0.02251	-0.04852	38.76522	-0.00485
7.97100	0.02251	-0.07202	38.86522	-0.00720
7.97200	0.02250	-0.06082	38.96523	-0.00608
7.97400	0.02249	-0.04392	39.06523	-0.00439
7.97500	0.02251	-0.05892	39.16524	-0.00589
7.97700	0.02254	-0.02002	39.26525	-0.00200
7.97800	0.02257	-0.00012	39.36525	-1.16838E-5
7.97900	0.02259	-0.00792	39.46526	-0.00079
7.98100	0.02260	-0.03392	39.56526	-0.00339
7.98400	0.02262	-0.06782	39.66527	-0.00678
7.98600	0.02265	-0.09652	39.76527	-0.00965
7.98900	0.02270	-0.09912	39.86528	-0.00991
7.99200	0.02273	-0.06952	39.96529	-0.00695
7.99400	0.02276	-0.08262	40.06529	-0.00826
7.99700	0.02277	-0.07112	40.16430	-0.00704
8.00100	0.02278	-0.06892	40.26430	-0.00689
8.00400	0.02278	-0.09842	40.36431	-0.00984
8.00600	0.02279	-0.08712	40.46431	-0.00871
8.00700	0.02282	-0.08662	40.56432	-0.00866
8.00600	0.02282	-0.09962	40.66433	-0.00996
8.00700	0.02282	-0.06202	40.76433	-0.00620
